{
  "resourceType": "Patient",
  "id": "15",
  "meta": {
    "versionId": "6",
    "lastUpdated": "2018-11-19T21:41:14.493+01:00"
  },
  "text": {
    "status": "generated",
    "div": "<div xmlns=\"http://www.w3.org/1999/xhtml\"><div class=\"hapiHeaderText\">Joe Alan Scott <b>WEST </b></div><table class=\"hapiPropertyTable\"><tbody><tr><td>Identifier</td><td>88589</td></tr><tr><td>Address</td><td><span>Water Road 675 </span><br/><span>Apartment 62 </span><br/><span>Freetown </span><span>Sierra Leone </span></td></tr><tr><td>Date of birth</td><td><span>11 November 2018</span></td></tr></tbody></table></div>"
  },
  "contained": [
    {
      "resourceType": "RelatedPerson",
      "id": "1",
      "active": true,
      "patient": {
        "reference": "Patient/15"
      },
      "relationship": {
        "coding": [
          {
            "system": "http://hl7.org/fhir/v3/RoleCode",
            "code": "MTH"
          }
        ]
      },
      "name": [
        {
          "family": "West",
          "given": [
            "Elizabeth"
          ]
        }
      ],
      "telecom": [
        {
          "system": "phone",
          "value": "(123) 456-7890.10",
          "use": "old",
          "rank": 1
        },
        {
          "system": "phone",
          "value": "(723) 456-7890.10",
          "use": "home",
          "rank": 2
        }
      ],
      "gender": "female"
    }
  ],
  "identifier": [
    {
      "system": "http://example.sl/patients",
      "value": "88589"
    }
  ],
  "name": [
    {
      "family": "West",
      "given": [
        "Joe",
        "Alan",
        "Scott"
      ]
    }
  ],
  "gender": "male",
  "birthDate": "2018-11-11",
  "address": [
    {
      "extension": [
        {
          "url": "http://hl7.org/fhir/StructureDefinition/geolocation",
          "extension": [
            {
              "url": "latitude",
              "valueDecimal": 8.4665341
            },
            {
              "url": "longitude",
              "valueDecimal": -13.262743
            }
          ]
        }
      ],
      "line": [
        "Water Road 675",
        "Apartment 62"
      ],
      "city": "Freetown",
      "country": "Sierra Leone"
    }
  ],
  "managingOrganization": {
    "reference": "Organization/19"
  },
  "link": [
    {
      "other": {
        "reference": "#1"
      },
      "type": "seealso"
    }
  ]
}
